#S.N.	date	time	blockcode	trialcode	threat_word_value	neutral_word_value	probe_position	current_probe_value	response	correct	latency	values_sum_correct	values_sum_correct_PITP	values_count_PITP	values_sum_correct_PINP	values_count_PINP	values_sumtr_PITP	values_sumrt_PINP	values_meanrt_PITP	values_meanrt_PINP	trail_probe_PITP_medianLatency	trial_probe_PINP_medianLatency	expression_TBI

1	11|7|2016	15:07:25:07S	PRACTICE_BLOCK	practice_probe	one	two	0	1	<	<	1	1.27459752405	0	
2	11|7|2016	15:07:25:07S	PRACTICE_BLOCK	practice_probe	two	ten	0	1	>	>	1	1.00138929755	0	
3	11|7|2016	15:07:25:07S	PRACTICE_BLOCK	practice_probe	three	seven	0	1	>	>	1	0.943273611174	0	
4	11|7|2016	15:07:25:07S	PRACTICE_BLOCK	practice_probe	four	nine	1	0	>	>	1	0.741159081455	0	
5	11|7|2016	15:07:25:07S	PRACTICE_BLOCK	practice_probe	five	four	0	1	<	<	1	0.754927404311	0	
6	11|7|2016	15:07:25:07S	PRACTICE_BLOCK	practice_probe	six	one	1	1	>	<	0	1.38178722948	0	
7	11|7|2016	15:07:25:07S	PRACTICE_BLOCK	practice_probe	seven	eight	0	1	<	<	1	1.01280262698	0	
8	11|7|2016	15:07:25:07S	PRACTICE_BLOCK	practice_probe	eight	three	1	0	<	<	1	0.846680832622	0	
9	11|7|2016	15:07:25:07S	PRACTICE_BLOCK	practice_probe	nine	five	1	1	<	<	1	0.966399581399	0	
10	11|7|2016	15:07:25:07S	PRACTICE_BLOCK	practice_probe	ten	six	1	0	>	>	1	0.800432878158	0	
11	11|7|2016	15:07:25:07S	TRIAL_BLOCK_1	probe_PITP	PANICKY	CLARETS	1	1	<	<	1	0.927422429075	
12	11|7|2016	15:07:25:07S	TRIAL_BLOCK_1	probe_PITP	DESPERATE	VARIABLES	1	1	<	<	1	0.691158501675	
13	11|7|2016	15:07:25:07S	TRIAL_BLOCK_1	probe_PITP	CRINGING	NECKLACE	0	1	<	<	1	0.660091358816	
14	11|7|2016	15:07:25:07S	TRIAL_BLOCK_1	probe_PINP	CRINGING	EDITIONS	0	0	>	>	1	0.692050275613	
15	11|7|2016	15:07:25:07S	TRIAL_BLOCK_1	probe_PINP	SCARED	PLANET	1	0	<	<	1	0.597938954976	
16	11|7|2016	15:07:25:07S	TRIAL_BLOCK_1	probe_PITP	CANCER	SADDLE	1	1	>	>	1	0.520846348184	
17	11|7|2016	15:07:25:07S	TRIAL_BLOCK_1	probe_PITP	DANGER	LEAGUE	0	1	>	>	1	0.585642548307	
18	11|7|2016	15:07:25:07S	TRIAL_BLOCK_1	probe_PINP	ALARMED	SHELVES	0	0	>	>	1	0.697703129507	
19	11|7|2016	15:07:25:07S	TRIAL_BLOCK_1	probe_PINP	CORONARY	RECEIPTS	1	0	>	>	1	0.689691296199	
20	11|7|2016	15:07:25:07S	TRIAL_BLOCK_1	probe_PITP	TRAUMA	ENJOIN	1	1	>	>	1	0.658629588777	
21	11|7|2016	15:07:25:07S	TRIAL_BLOCK_1	probe_PITP	EDGY	RINK	1	1	<	<	1	0.660425456975	
22	11|7|2016	15:07:25:07S	TRIAL_BLOCK_1	probe_PINP	EMERGENCY	LISTENING	0	0	>	>	1	0.656240533282	
23	11|7|2016	15:07:25:07S	TRIAL_BLOCK_1	probe_PITP	DISTRESS	CREATURE	0	1	<	<	1	0.662124212043	
24	11|7|2016	15:07:25:07S	TRIAL_BLOCK_1	probe_PINP	UNSETTLED	ADVOCATED	1	0	>	>	1	0.697084214478	
25	11|7|2016	15:07:25:07S	TRIAL_BLOCK_1	probe_PINP	HOSTILE	ROLLING	0	0	<	<	1	0.80783376841	
26	11|7|2016	15:07:25:07S	TRIAL_BLOCK_1	probe_PINP	CONFUSED	ARRANGED	0	0	<	<	1	0.709771972571	
27	11|7|2016	15:07:25:07S	TRIAL_BLOCK_1	probe_PINP	TOUCHY	TINTED	1	0	>	>	1	0.650951128904	
28	11|7|2016	15:07:25:07S	TRIAL_BLOCK_1	probe_PITP	FRIGHT	SIPPED	1	1	<	<	1	0.585587469217	
29	11|7|2016	15:07:25:07S	TRIAL_BLOCK_1	probe_PITP	WORRIED	CONTEXT	1	1	<	<	1	0.651658098003	
30	11|7|2016	15:07:25:07S	TRIAL_BLOCK_1	probe_PINP	NAUSEA	CONFER	0	0	>	>	1	0.680415542739	
31	11|7|2016	15:07:25:07S	TRIAL_BLOCK_1	probe_PINP	DISEASE	REMARKS	1	0	>	>	1	0.589349878319	
32	11|7|2016	15:07:25:07S	TRIAL_BLOCK_1	probe_PITP	WARY	FOLD	1	1	<	<	1	0.667412166971	
33	11|7|2016	15:07:25:07S	TRIAL_BLOCK_1	probe_PITP	SINISTER	INTEGRAL	0	1	>	>	1	0.791297358958	
34	11|7|2016	15:07:25:07S	TRIAL_BLOCK_1	probe_PITP	MUTILATED	DECANTING	0	1	>	>	1	0.661085318959	
35	11|7|2016	15:07:25:07S	TRIAL_BLOCK_1	probe_PINP	NERVOUS	OUTCOME	0	0	<	<	1	0.695965964022	
36	11|7|2016	15:07:25:07S	TRIAL_BLOCK_1	probe_PITP	ASSAULT	BOTTLES	0	1	>	>	1	0.972877172182	
37	11|7|2016	15:07:25:07S	TRIAL_BLOCK_1	probe_PITP	SUFFOCATING	CONSTITUENT	1	1	>	>	1	0.782741257282	
38	11|7|2016	15:07:25:07S	TRIAL_BLOCK_1	probe_PITP	CATASTROPHE	APPROXIMATE	0	1	>	>	1	0.626595300594	
39	11|7|2016	15:07:25:07S	TRIAL_BLOCK_1	probe_PINP	LOST	READ	1	0	<	<	1	0.791649575239	
40	11|7|2016	15:07:25:07S	TRIAL_BLOCK_1	probe_PITP	HARM	NOON	0	1	>	>	1	0.761431447551	
41	11|7|2016	15:07:25:07S	TRIAL_BLOCK_1	probe_PITP	TENSE	BACKS	0	1	<	<	1	1.06346560528	
42	11|7|2016	15:07:25:07S	TRIAL_BLOCK_1	probe_PINP	JUMPY	LOTUS	1	0	>	>	1	0.718211393544	
43	11|7|2016	15:07:25:07S	TRIAL_BLOCK_1	probe_PITP	DEFENSIVE	GEOMETRIC	1	1	>	>	1	0.67012553684	
44	11|7|2016	15:07:25:07S	TRIAL_BLOCK_1	probe_PITP	EMBARRASSED	MICROSCOPIC	0	1	>	>	1	0.67900740234	
45	11|7|2016	15:07:25:07S	TRIAL_BLOCK_1	probe_PINP	LETHAL	RACKET	0	0	>	>	1	0.683954374222	
46	11|7|2016	15:07:25:07S	TRIAL_BLOCK_1	probe_PITP	APPREHENSION	INSTRUMENTAL	1	1	>	>	1	0.705824033906	
47	11|7|2016	15:07:25:07S	TRIAL_BLOCK_1	probe_PINP	AMBULANCE	MOMENTARY	1	0	>	>	1	0.578733746233	
48	11|7|2016	15:07:25:07S	TRIAL_BLOCK_1	probe_PITP	ATTACK	SEASON	1	1	>	>	1	0.653582967226	
49	11|7|2016	15:07:25:07S	TRIAL_BLOCK_1	probe_PITP	HORROR	WAGONS	0	1	<	<	1	0.867693505161	
50	11|7|2016	15:07:25:07S	TRIAL_BLOCK_1	probe_PITP	STRANGLED	SIGNATURE	0	1	<	<	1	0.922431248976	
51	11|7|2016	15:07:25:07S	TRIAL_BLOCK_1	probe_PINP	AGITATION	FIREPLACE	1	0	>	>	1	0.589374518964	
52	11|7|2016	15:07:25:07S	TRIAL_BLOCK_1	probe_PINP	INSECURE	FETCHING	0	0	>	>	1	0.673224097971	
53	11|7|2016	15:07:25:07S	TRIAL_BLOCK_1	probe_PINP	INCURABLE	RECLAIMED	0	0	<	<	1	0.86209935398	
54	11|7|2016	15:07:25:07S	TRIAL_BLOCK_1	probe_PITP	SUICIDE	SUMMERS	0	1	>	>	1	0.718093988117	
55	11|7|2016	15:07:25:07S	TRIAL_BLOCK_1	probe_PITP	FUNERAL	HUNTING	1	1	<	<	1	0.628179911497	
56	11|7|2016	15:07:25:07S	TRIAL_BLOCK_1	probe_PITP	GRIEVING	HALLMARK	0	1	<	<	1	0.608833381407	
57	11|7|2016	15:07:25:07S	TRIAL_BLOCK_1	probe_PITP	TRAGEDY	REQUEST	0	1	<	<	1	0.719735852284	
58	11|7|2016	15:07:25:07S	TRIAL_BLOCK_1	probe_PITP	WORTHLESS	BATTERIES	0	1	<	<	1	0.700643700619	
59	11|7|2016	15:07:25:07S	TRIAL_BLOCK_1	probe_PITP	UNPOPULAR	SHORELINE	0	1	>	>	1	0.8117197431	
60	11|7|2016	15:07:25:07S	TRIAL_BLOCK_1	probe_PITP	SAD	PAT	0	1	>	>	1	0.648576567906	
61	11|7|2016	15:07:25:07S	TRIAL_BLOCK_1	probe_PINP	POINTLESS	LUNCHROOM	1	0	<	<	1	0.758456089646	
62	11|7|2016	15:07:25:07S	TRIAL_BLOCK_1	probe_PITP	GLUM	KITE	0	1	<	<	1	0.667255626401	
63	11|7|2016	15:07:25:07S	TRIAL_BLOCK_1	probe_PINP	REJECTED	QUANTITY	1	0	>	>	1	0.669126503623	
64	11|7|2016	15:07:25:07S	TRIAL_BLOCK_1	probe_PITP	POWERLESS	MULTITUDE	1	1	<	<	1	0.723975130342	
65	11|7|2016	15:07:25:07S	TRIAL_BLOCK_1	probe_PITP	SICKLY	TOKENS	0	1	<	<	1	0.630905239326	
66	11|7|2016	15:07:25:07S	TRIAL_BLOCK_1	probe_PINP	DEVASTATED	STAGECOACH	1	0	>	>	1	0.772909277493	
67	11|7|2016	15:07:25:07S	TRIAL_BLOCK_1	probe_PITP	INFERIOR	SHEARING	1	1	>	>	1	0.591598337191	
68	11|7|2016	15:07:25:07S	TRIAL_BLOCK_1	probe_PINP	FAIL	EARS	1	0	>	>	1	0.725660840362	
69	11|7|2016	15:07:25:07S	TRIAL_BLOCK_1	probe_PINP	DEFEAT	MUSEUM	0	0	<	<	1	0.712511070172	
70	11|7|2016	15:07:25:07S	TRIAL_BLOCK_1	probe_PINP	LONELY	JERSEY	1	0	>	>	1	1.27967929476	
71	11|7|2016	15:07:25:07S	TRIAL_BLOCK_1	probe_PINP	FATIGUE	AVOCADO	1	0	<	<	1	0.751321535779	
72	11|7|2016	15:07:25:07S	TRIAL_BLOCK_1	probe_PINP	IGNORED	LIGHTED	1	0	>	>	1	1.20933206458	
73	11|7|2016	15:07:25:07S	TRIAL_BLOCK_1	probe_PINP	SLUGGISH	TEXTURED	1	0	>	>	1	0.771100001884	
74	11|7|2016	15:07:25:07S	TRIAL_BLOCK_1	probe_PINP	GROAN	FLUTE	1	0	>	>	1	0.691162125299	
75	11|7|2016	15:07:25:07S	TRIAL_BLOCK_1	probe_PINP	MISERABLE	STATEWIDE	0	0	>	>	1	0.785811554143	
76	11|7|2016	15:07:25:07S	TRIAL_BLOCK_1	probe_PINP	BROODING	PROTEINS	0	0	<	<	1	0.950988307289	
77	11|7|2016	15:07:25:07S	TRIAL_BLOCK_1	probe_PITP	UNFORTUNATE	COMMODITIES	1	1	>	>	1	0.917642991838	
78	11|7|2016	15:07:25:07S	TRIAL_BLOCK_1	probe_PITP	DESPISED	TOMATOES	0	1	<	<	1	0.852528637503	
79	11|7|2016	15:07:25:07S	TRIAL_BLOCK_1	probe_PITP	PATHETIC	CLEANERS	1	1	<	<	1	0.786329732417	
80	11|7|2016	15:07:25:07S	TRIAL_BLOCK_1	probe_PINP	HUMILIATED	WATERPROOF	0	0	<	<	1	0.818368731311	
81	11|7|2016	15:07:25:07S	TRIAL_BLOCK_1	probe_PINP	HAZARD	BALLOT	1	0	<	<	1	0.856396856433	
82	11|7|2016	15:07:25:07S	TRIAL_BLOCK_1	probe_PINP	INTIMIDATED	COEFFICIENT	0	0	>	>	1	0.852242008821	
83	11|7|2016	15:07:25:07S	TRIAL_BLOCK_1	probe_PITP	QUAKING	ANAGRAM	1	1	<	<	1	0.76998501269	
84	11|7|2016	15:07:25:07S	TRIAL_BLOCK_1	probe_PINP	TIMID	SATIN	0	0	<	<	1	0.660736001577	
85	11|7|2016	15:07:25:07S	TRIAL_BLOCK_1	probe_PINP	TEASE	AISLE	1	0	<	<	1	0.557026062555	
86	11|7|2016	15:07:25:07S	TRIAL_BLOCK_1	probe_PINP	DISMAL	MIDWAY	1	0	<	<	1	0.553768424318	
87	11|7|2016	15:07:25:07S	TRIAL_BLOCK_1	probe_PINP	HOPELESS	FEATHERS	1	0	<	<	1	0.569773248086	
88	11|7|2016	15:07:25:07S	TRIAL_BLOCK_1	probe_PITP	AWFUL	TRACT	1	1	<	<	1	0.72542639187	
89	11|7|2016	15:07:25:07S	TRIAL_BLOCK_1	probe_PITP	DESERTED	MARCHING	1	1	<	<	1	0.653388740965	
90	11|7|2016	15:07:25:07S	TRIAL_BLOCK_1	probe_PITP	FUTILE	ATTIRE	1	1	<	<	1	0.73041177417	
91	11|7|2016	15:07:25:07S	TRIAL_BLOCK_1	probe_PINP	MOURN	SCANS	0	0	>	>	1	0.92732169232	
92	11|7|2016	15:07:25:07S	TRIAL_BLOCK_1	probe_PINP	DISCOURAGED	CONNECTIONS	0	0	<	<	1	0.651149703515	
93	11|7|2016	15:07:25:07S	TRIAL_BLOCK_1	probe_PITP	INADEQUATE	TRANSITION	0	1	<	<	1	0.556179946283	
94	11|7|2016	15:07:25:07S	TRIAL_BLOCK_1	probe_PITP	DISCONTENTED	HOUSEHOLDERS	0	1	<	<	1	0.53279017621	
95	11|7|2016	15:07:25:07S	TRIAL_BLOCK_1	probe_PINP	INFORM	DEPOTS	1	0	<	<	1	0.621129788076	
96	11|7|2016	15:07:25:07S	TRIAL_BLOCK_1	probe_PITP	MISUNDERSTOOD	MANIFESTATION	0	1	>	>	1	0.727806388305	
97	11|7|2016	15:07:25:07S	TRIAL_BLOCK_1	probe_PINP	GLOOMY	PASTEL	1	0	>	>	1	0.649715110658	
98	11|7|2016	15:07:25:07S	TRIAL_BLOCK_1	probe_PINP	USELESS	FLOWING	0	0	>	>	1	0.586640494436	
99	11|7|2016	15:07:25:07S	TRIAL_BLOCK_1	probe_PINP	FORLORN	KEYHOLE	0	0	<	<	1	0.724619410741	
100	11|7|2016	15:07:25:07S	TRIAL_BLOCK_1	probe_PITP	TORMENTED	MYTHOLOGY	1	1	>	>	1	0.807479377954	
101	11|7|2016	15:07:25:07S	TRIAL_BLOCK_1	probe_PINP	DEATHBED	SOFTENER	1	0	>	>	1	0.805265343512	
102	11|7|2016	15:07:25:07S	TRIAL_BLOCK_1	probe_PINP	UNHAPPY	BRIDGES	0	0	<	<	1	0.649238604064	
103	11|7|2016	15:07:25:07S	TRIAL_BLOCK_1	probe_PITP	DULL	FLEW	0	1	>	>	1	0.657235942874	
104	11|7|2016	15:07:25:07S	TRIAL_BLOCK_1	probe_PITP	DREADFUL	COMPUTER	1	1	<	<	1	0.703808936437	
105	11|7|2016	15:07:25:07S	TRIAL_BLOCK_1	probe_PINP	COFFIN	EDITED	0	0	<	<	1	0.721755298101	
106	11|7|2016	15:07:25:07S	TRIAL_BLOCK_1	probe_PITP	MISTAKE	QUARTER	0	1	>	>	1	1.32580948143	
