#S.N.	date	subject	Trials	currentblock	Trial_value	up_type	down_type	trialtimeout	correct	latency

1	11|5|2016	1122	FIXATION	0	0			500	0	0.519864346001
2	11|5|2016	1122	PRACTICE_PIC	0	0	Neutral	Neutral	250	0	0.259639565339
3	11|5|2016	1122	DOWN_PROBE	0	0			500	0	7.000655876	9.46803166178
4	11|5|2016	1122	FIXATION	0	1			500	0	0.48777207983
5	11|5|2016	1122	PRACTICE_PIC	0	1	Neutral	Neutral	250	0	0.262532304611
6	11|5|2016	1122	UP_PROBE	0	1			500	0	7.0089445542	17.2738713497
7	11|5|2016	1122	FIXATION	0	2			500	0	0.488758067999
8	11|5|2016	1122	PRACTICE_PIC	0	2	Neutral	Neutral	250	0	0.240771353656
9	11|5|2016	1122	UP_PROBE	0	2			500	0	7.00858726484	25.0709904235
10	11|5|2016	1122	FIXATION	0	3			500	0	0.506639566788
11	11|5|2016	1122	PRACTICE_PIC	0	3	Neutral	Neutral	250	0	0.26153725738
12	11|5|2016	1122	DOWN_PROBE	0	3			500	0	7.0078730485	32.899653509
13	11|5|2016	1122	FIXATION	0	4			500	0	0.47956746971
14	11|5|2016	1122	PRACTICE_PIC	0	4	Neutral	Neutral	250	0	0.260680632598
15	11|5|2016	1122	DOWN_PROBE	0	4			500	0	7.02055138517	40.7225104614
16	11|5|2016	1122	FIXATION	0	5			500	0	0.494341348307
17	11|5|2016	1122	PRACTICE_PIC	0	5	Neutral	Neutral	250	0	0.239598386473
18	11|5|2016	1122	DOWN_PROBE	0	5			500	0	7.01681724033	48.5289984158
19	11|5|2016	1122	FIXATION	0	6			500	0	0.487409717401
20	11|5|2016	1122	PRACTICE_PIC	0	6	Neutral	Neutral	250	0	0.25374429098
21	11|5|2016	1122	DOWN_PROBE	0	6			500	0	7.02191604207	56.3417806055
22	11|5|2016	1122	FIXATION	0	7			500	0	0.492159201759
23	11|5|2016	1122	PRACTICE_PIC	0	7	Neutral	Neutral	250	0	0.261248092162
24	11|5|2016	1122	UP_PROBE	0	7			500	0	7.0182199453	64.1734853613
25	11|5|2016	1122	FIXATION	0	8			500	0	0.497417442968
26	11|5|2016	1122	PRACTICE_PIC	0	8	Neutral	Neutral	250	0	0.262833427789
27	11|5|2016	1122	DOWN_PROBE	0	8			500	0	6.99699601546	72.0015367791
28	11|5|2016	1122	FIXATION	0	9			500	0	0.50319676135
29	11|5|2016	1122	PRACTICE_PIC	0	9	Neutral	Neutral	250	0	0.248388211915
30	11|5|2016	1122	DOWN_PROBE	0	9			500	0	6.99771168126	79.8154368569
31	11|5|2016	1122	FIXATION	0	10			500	0	0.503458387023
32	11|5|2016	1122	PRACTICE_PIC	0	10	Neutral	Neutral	250	0	0.262779435787
33	11|5|2016	1122	UP_PROBE	0	10			500	0	6.98983718331	87.626699661
34	11|5|2016	1122	FIXATION	0	11			500	0	0.503190963551
35	11|5|2016	1122	PRACTICE_PIC	0	11	Neutral	Neutral	250	0	0.262649710038
36	11|5|2016	1122	DOWN_PROBE	0	11			500	0	7.02822368488	95.4322603299
37	11|5|2016	1122	FIXATION	0	12			500	0	0.479281565754
38	11|5|2016	1122	PRACTICE_PIC	0	12	Neutral	Neutral	250	0	0.260866524524
39	11|5|2016	1122	UP_PROBE	0	12			500	0	7.0303627103	103.288230686
40	11|5|2016	1122	FIXATION	0	13			500	0	0.477706013912
41	11|5|2016	1122	PRACTICE_PIC	0	13	Neutral	Neutral	250	0	0.260825939932
42	11|5|2016	1122	UP_PROBE	0	13			500	0	7.02483487144	111.09400225
43	11|5|2016	1122	FIXATION	0	14			500	0	0.520256422149
44	11|5|2016	1122	PRACTICE_PIC	0	14	Neutral	Neutral	250	0	0.261814464639
45	11|5|2016	1122	UP_PROBE	0	14			500	0	7.01371686739	118.984144832
46	11|5|2016	1122	FIXATION	0	15			500	0	0.499970286281
47	11|5|2016	1122	PRACTICE_PIC	0	15	Neutral	Neutral	250	0	0.261938754952
48	11|5|2016	1122	UP_PROBE	0	15			500	0	7.03042938498	126.818559334
49	11|5|2016	1122	FIXATION	1	0			500	0	0.516657800866
50	11|5|2016	1122	TRIAL_PIC	1	0	Neutral	Positive	250	0	0.254908199102
51	11|5|2016	1122	UP_PROBE	1	0			500	0	7.01618165663	215.72628193
52	11|5|2016	1122	FIXATION	1	1			500	0	0.524225015473
53	11|5|2016	1122	TRIAL_PIC	1	1	Neutral	Negative	250	0	0.257334215565
54	11|5|2016	1122	DOWN_PROBE	1	1			500	0	7.0149416524	223.594883877
55	11|5|2016	1122	FIXATION	1	2			500	0	0.509759144941
56	11|5|2016	1122	TRIAL_PIC	1	2	Neutral	Neutral	250	0	0.2640553139
57	11|5|2016	1122	DOWN_PROBE	1	2			500	0	6.9948805436	231.435485718
58	11|5|2016	1122	FIXATION	1	3			500	0	0.513525902391
59	11|5|2016	1122	TRIAL_PIC	1	3	Neutral	Negative	250	0	0.257161006324
60	11|5|2016	1122	DOWN_PROBE	1	3			500	0	7.00964645023	239.259812412
61	11|5|2016	1122	FIXATION	1	4			500	0	0.50908623791
62	11|5|2016	1122	TRIAL_PIC	1	4	Neutral	Neutral	250	0	0.24097645079
63	11|5|2016	1122	UP_PROBE	1	4			500	0	7.03417367596	247.102675032
64	11|5|2016	1122	FIXATION	1	5			500	0	0.502771347858
65	11|5|2016	1122	TRIAL_PIC	1	5	Neutral	Neutral	250	0	0.248554173908
66	11|5|2016	1122	DOWN_PROBE	1	5			500	0	7.02264402819	254.954687303
67	11|5|2016	1122	FIXATION	1	6			500	0	0.497219593081
68	11|5|2016	1122	TRIAL_PIC	1	6	Negative	Neutral	250	0	0.242574831465
69	11|5|2016	1122	DOWN_PROBE	1	6			500	0	7.03076855622	262.783267408
70	11|5|2016	1122	FIXATION	1	7			500	0	0.506194948088
71	11|5|2016	1122	TRIAL_PIC	1	7	Neutral	Neutral	250	0	0.242608893534
72	11|5|2016	1122	UP_PROBE	1	7			500	0	7.03169801585	270.626511233
73	11|5|2016	1122	FIXATION	1	8			500	0	0.497017757208
74	11|5|2016	1122	TRIAL_PIC	1	8	Neutral	Neutral	250	0	0.255169824776
75	11|5|2016	1122	DOWN_PROBE	1	8			500	0	7.0080640135	278.471268645
76	11|5|2016	1122	FIXATION	1	9			500	0	0.494705160186
77	11|5|2016	1122	TRIAL_PIC	1	9	Positive	Neutral	250	0	0.259815311117
78	11|5|2016	1122	UP_PROBE	1	9			500	0	7.01880081227	286.292369952
79	11|5|2016	1122	FIXATION	1	10			500	0	0.512610937258
80	11|5|2016	1122	TRIAL_PIC	1	10	Positive	Neutral	250	0	0.247254379875
81	11|5|2016	1122	UP_PROBE	1	10			500	0	7.00606304816	294.125080988
82	11|5|2016	1122	FIXATION	1	11			500	0	0.4968046881
83	11|5|2016	1122	TRIAL_PIC	1	11	Neutral	Positive	250	0	0.256614201418
84	11|5|2016	1122	DOWN_PROBE	1	11			500	0	7.02325823251	301.962329527
85	11|5|2016	1122	FIXATION	1	12			500	0	0.503364172792
86	11|5|2016	1122	TRIAL_PIC	1	12	Neutral	Negative	250	0	0.257778834266
87	11|5|2016	1122	UP_PROBE	1	12			500	0	7.01581349641	309.796234909
88	11|5|2016	1122	FIXATION	1	13			500	0	0.497243871364
89	11|5|2016	1122	TRIAL_PIC	1	13	Positive	Neutral	250	0	0.251810725058
90	11|5|2016	1122	DOWN_PROBE	1	13			500	0	7.00873764525	317.622017938
91	11|5|2016	1122	FIXATION	1	14			500	0	0.509548974732
92	11|5|2016	1122	TRIAL_PIC	1	14	Negative	Neutral	250	0	0.255720615668
93	11|5|2016	1122	UP_PROBE	1	14			500	0	7.02335788218	325.48058752
94	11|5|2016	1122	FIXATION	1	15			500	0	0.496918832265
95	11|5|2016	1122	TRIAL_PIC	1	15	Negative	Neutral	250	0	0.243456459255
96	11|5|2016	1122	DOWN_PROBE	1	15			500	0	7.03884887602	333.314298314
97	11|5|2016	1122	FIXATION	1	16			500	0	0.496699240633
98	11|5|2016	1122	TRIAL_PIC	1	16	Neutral	Positive	250	0	0.241109800164
99	11|5|2016	1122	UP_PROBE	1	16			500	0	7.04315990184	341.160058384
100	11|5|2016	1122	FIXATION	1	17			500	0	0.511500658775
101	11|5|2016	1122	TRIAL_PIC	1	17	Neutral	Neutral	250	0	0.240443415657
